{
  "resourceType": "Bundle",
  "id": "all-cms-cqm-bundle",
  "type": "transaction",
  "entry": [
    {
      "resource": {
        "resourceType": "Library",
        "id": "library-adult-outpatient-encounters-FHIR",
        "status": "draft",
        "type": {
          "coding": [
            {
              "code": "logic-library"
            }
          ]
        },
        "relatedArtifact": [
          {
            "type": "depends-on",
            "resource": {
              "reference": "Library/FHIRHelpers"
            }
          }
        ],
        "dataRequirement": [
          {
            "type": "Encounter",
            "codeFilter": [
              {
                "path": "type",
                "valueSet": "urn:oid:2.16.840.1.113883.3.464.1003.101.12.1001"
              }
            ]
          },
          {
            "type": "Encounter",
            "codeFilter": [
              {
                "path": "type",
                "valueSet": "urn:oid:2.16.840.1.113883.3.526.3.1240"
              }
            ]
          },
          {
            "type": "Encounter",
            "codeFilter": [
              {
                "path": "type",
                "valueSet": "urn:oid:2.16.840.1.113883.3.464.1003.101.12.1025"
              }
            ]
          },
          {
            "type": "Encounter",
            "codeFilter": [
              {
                "path": "type",
                "valueSet": "urn:oid:2.16.840.1.113883.3.464.1003.101.12.1023"
              }
            ]
          },
          {
            "type": "Encounter",
            "codeFilter": [
              {
                "path": "type",
                "valueSet": "urn:oid:2.16.840.1.113883.3.464.1003.101.12.1016"
              }
            ]
          }
        ],
        "content": [
          {
            "contentType": "application/elm+xml",
            "data": ""
          },
          {
            "contentType": "text/cql",
            "data": ""
          }
        ]
      },
      "request": {
        "method": "PUT",
        "url": "http://localhost:8080/cqf-ruler/baseDstu3/Library/library-adult-outpatient-encounters-FHIR"
      }
    },
    {
      "resource": {
        "resourceType": "Library",
        "id": "library-cms124-FHIR",
        "version": "7.0.0",
        "status": "active",
        "experimental": true,
        "type": {
          "coding": [
            {
              "code": "logic-library"
            }
          ]
        },
        "relatedArtifact": [
          {
            "type": "depends-on",
            "resource": {
              "reference": "Library/library-mat-global-common-functions-FHIR"
            }
          },
          {
            "type": "depends-on",
            "resource": {
              "reference": "Library/library-adult-outpatient-encounters-FHIR"
            }
          },
          {
            "type": "depends-on",
            "resource": {
              "reference": "Library/library-hospice-FHIR"
            }
          },
          {
            "type": "depends-on",
            "resource": {
              "reference": "Library/FHIRHelpers"
            }
          }
        ],
        "dataRequirement": [
          {
            "type": "Encounter",
            "codeFilter": [
              {
                "path": "type",
                "valueSet": "urn:oid:2.16.840.1.113883.3.117.1.7.1.292"
              }
            ]
          },
          {
            "type": "Encounter",
            "codeFilter": [
              {
                "path": "type",
                "valueSet": "urn:oid:2.16.840.1.113883.3.666.5.307"
              }
            ]
          },
          {
            "type": "Encounter",
            "codeFilter": [
              {
                "path": "type",
                "valueSet": "urn:oid:2.16.840.1.113883.3.117.1.7.1.292"
              }
            ]
          },
          {
            "type": "Encounter",
            "codeFilter": [
              {
                "path": "type",
                "valueSet": "urn:oid:2.16.840.1.113883.3.464.1003.101.12.1001"
              }
            ]
          },
          {
            "type": "Encounter",
            "codeFilter": [
              {
                "path": "type",
                "valueSet": "urn:oid:2.16.840.1.113883.3.526.3.1240"
              }
            ]
          },
          {
            "type": "Encounter",
            "codeFilter": [
              {
                "path": "type",
                "valueSet": "urn:oid:2.16.840.1.113883.3.464.1003.101.12.1025"
              }
            ]
          },
          {
            "type": "Encounter",
            "codeFilter": [
              {
                "path": "type",
                "valueSet": "urn:oid:2.16.840.1.113883.3.464.1003.101.12.1023"
              }
            ]
          },
          {
            "type": "Encounter",
            "codeFilter": [
              {
                "path": "type",
                "valueSet": "urn:oid:2.16.840.1.113883.3.464.1003.101.12.1016"
              }
            ]
          },
          {
            "type": "Encounter",
            "codeFilter": [
              {
                "path": "type",
                "valueSet": "urn:oid:2.16.840.1.113883.3.117.1.7.1.292"
              }
            ]
          },
          {
            "type": "Encounter",
            "codeFilter": [
              {
                "path": "type",
                "valueSet": "urn:oid:2.16.840.1.113883.3.666.5.307"
              }
            ]
          },
          {
            "type": "Encounter",
            "codeFilter": [
              {
                "path": "type",
                "valueSet": "urn:oid:2.16.840.1.113883.3.117.1.7.1.292"
              }
            ]
          },
          {
            "type": "Encounter",
            "codeFilter": [
              {
                "path": "type",
                "valueSet": "urn:oid:2.16.840.1.113883.3.666.5.307"
              }
            ]
          },
          {
            "type": "ProcedureRequest",
            "codeFilter": [
              {
                "path": "code",
                "valueSet": "urn:oid:2.16.840.1.113762.1.4.1108.15"
              }
            ]
          },
          {
            "type": "Procedure",
            "codeFilter": [
              {
                "path": "code",
                "valueSet": "urn:oid:2.16.840.1.113762.1.4.1108.15"
              }
            ]
          },
          {
            "type": "Coverage",
            "codeFilter": [
              {
                "path": "type",
                "valueSet": "urn:oid:2.16.840.1.114222.4.11.3591"
              }
            ]
          },
          {
            "type": "Patient",
            "codeFilter": [
              {
                "path": "gender",
                "valueSet": "urn:oid:2.16.840.1.113762.1.4.1"
              }
            ]
          },
          {
            "type": "Observation",
            "codeFilter": [
              {
                "path": "code",
                "valueSet": "urn:oid:2.16.840.1.113883.3.464.1003.108.12.1017"
              }
            ]
          },
          {
            "type": "Observation",
            "codeFilter": [
              {
                "path": "code",
                "valueSet": "urn:oid:2.16.840.1.113883.3.464.1003.110.12.1059"
              }
            ]
          },
          {
            "type": "Encounter",
            "codeFilter": [
              {
                "path": "type",
                "valueSet": "urn:oid:2.16.840.1.113883.3.464.1003.101.12.1001"
              }
            ]
          },
          {
            "type": "Encounter",
            "codeFilter": [
              {
                "path": "type",
                "valueSet": "urn:oid:2.16.840.1.113883.3.464.1003.101.12.1025"
              }
            ]
          },
          {
            "type": "Encounter",
            "codeFilter": [
              {
                "path": "type",
                "valueSet": "urn:oid:2.16.840.1.113883.3.464.1003.101.12.1023"
              }
            ]
          },
          {
            "type": "Encounter",
            "codeFilter": [
              {
                "path": "type",
                "valueSet": "urn:oid:2.16.840.1.113883.3.464.1003.101.12.1016"
              }
            ]
          },
          {
            "type": "Procedure",
            "codeFilter": [
              {
                "path": "code",
                "valueSet": "urn:oid:2.16.840.1.113883.3.464.1003.198.12.1014"
              }
            ]
          },
          {
            "type": "Condition",
            "codeFilter": [
              {
                "path": "code"
              }
            ]
          }
        ],
        "content": [
          {
            "contentType": "application/elm+xml",
            "data": ""
          },
          {
            "contentType": "text/cql",
            "data": ""
          }
        ]
      },
      "request": {
        "method": "PUT",
        "url": "http://localhost:8080/cqf-ruler/baseDstu3/Library/library-cms124-FHIR"
      }
    },
    {
      "resource": {
        "resourceType": "Library",
        "id": "library-cms125-FHIR",
        "version": "6.0.0",
        "status": "active",
        "experimental": true,
        "type": {
          "coding": [
            {
              "code": "logic-library"
            }
          ]
        },
        "relatedArtifact": [
          {
            "type": "depends-on",
            "resource": {
              "reference": "Library/library-mat-global-common-functions-FHIR"
            }
          },
          {
            "type": "depends-on",
            "resource": {
              "reference": "Library/library-adult-outpatient-encounters-FHIR"
            }
          },
          {
            "type": "depends-on",
            "resource": {
              "reference": "Library/library-hospice-FHIR"
            }
          },
          {
            "type": "depends-on",
            "resource": {
              "reference": "Library/FHIRHelpers"
            }
          }
        ],
        "dataRequirement": [
          {
            "type": "Encounter",
            "codeFilter": [
              {
                "path": "type",
                "valueSet": "urn:oid:2.16.840.1.113883.3.117.1.7.1.292"
              }
            ]
          },
          {
            "type": "Encounter",
            "codeFilter": [
              {
                "path": "type",
                "valueSet": "urn:oid:2.16.840.1.113883.3.666.5.307"
              }
            ]
          },
          {
            "type": "Encounter",
            "codeFilter": [
              {
                "path": "type",
                "valueSet": "urn:oid:2.16.840.1.113883.3.117.1.7.1.292"
              }
            ]
          },
          {
            "type": "Encounter",
            "codeFilter": [
              {
                "path": "type",
                "valueSet": "urn:oid:2.16.840.1.113883.3.464.1003.101.12.1001"
              }
            ]
          },
          {
            "type": "Encounter",
            "codeFilter": [
              {
                "path": "type",
                "valueSet": "urn:oid:2.16.840.1.113883.3.526.3.1240"
              }
            ]
          },
          {
            "type": "Encounter",
            "codeFilter": [
              {
                "path": "type",
                "valueSet": "urn:oid:2.16.840.1.113883.3.464.1003.101.12.1025"
              }
            ]
          },
          {
            "type": "Encounter",
            "codeFilter": [
              {
                "path": "type",
                "valueSet": "urn:oid:2.16.840.1.113883.3.464.1003.101.12.1023"
              }
            ]
          },
          {
            "type": "Encounter",
            "codeFilter": [
              {
                "path": "type",
                "valueSet": "urn:oid:2.16.840.1.113883.3.464.1003.101.12.1016"
              }
            ]
          },
          {
            "type": "Encounter",
            "codeFilter": [
              {
                "path": "type",
                "valueSet": "urn:oid:2.16.840.1.113883.3.117.1.7.1.292"
              }
            ]
          },
          {
            "type": "Encounter",
            "codeFilter": [
              {
                "path": "type",
                "valueSet": "urn:oid:2.16.840.1.113883.3.666.5.307"
              }
            ]
          },
          {
            "type": "Encounter",
            "codeFilter": [
              {
                "path": "type",
                "valueSet": "urn:oid:2.16.840.1.113883.3.117.1.7.1.292"
              }
            ]
          },
          {
            "type": "Encounter",
            "codeFilter": [
              {
                "path": "type",
                "valueSet": "urn:oid:2.16.840.1.113883.3.666.5.307"
              }
            ]
          },
          {
            "type": "ProcedureRequest",
            "codeFilter": [
              {
                "path": "code",
                "valueSet": "urn:oid:2.16.840.1.113762.1.4.1108.15"
              }
            ]
          },
          {
            "type": "Procedure",
            "codeFilter": [
              {
                "path": "code",
                "valueSet": "urn:oid:2.16.840.1.113762.1.4.1108.15"
              }
            ]
          },
          {
            "type": "Coverage",
            "codeFilter": [
              {
                "path": "type",
                "valueSet": "urn:oid:2.16.840.1.114222.4.11.3591"
              }
            ]
          },
          {
            "type": "Patient",
            "codeFilter": [
              {
                "path": "gender",
                "valueSet": "urn:oid:2.16.840.1.113762.1.4.1"
              }
            ]
          },
          {
            "type": "Procedure",
            "codeFilter": [
              {
                "path": "code",
                "valueSet": "urn:oid:2.16.840.1.113883.3.464.1003.198.12.1020"
              }
            ]
          },
          {
            "type": "Condition",
            "codeFilter": [
              {
                "path": "code",
                "valueSet": "urn:oid:2.16.840.1.113883.3.464.1003.198.12.1070"
              }
            ]
          },
          {
            "type": "Condition",
            "codeFilter": [
              {
                "path": "code",
                "valueSet": "urn:oid:2.16.840.1.113883.3.464.1003.198.12.1071"
              }
            ]
          },
          {
            "type": "Condition",
            "codeFilter": [
              {
                "path": "code",
                "valueSet": "urn:oid:2.16.840.1.113883.3.464.1003.198.12.1069"
              }
            ]
          },
          {
            "type": "Condition",
            "codeFilter": [
              {
                "path": "code",
                "valueSet": "urn:oid:2.16.840.1.113883.3.464.1003.198.12.1071"
              }
            ]
          },
          {
            "type": "Condition",
            "codeFilter": [
              {
                "path": "code",
                "valueSet": "urn:oid:2.16.840.1.113883.3.464.1003.198.12.1068"
              }
            ]
          },
          {
            "type": "Procedure",
            "codeFilter": [
              {
                "path": "code",
                "valueSet": "urn:oid:2.16.840.1.113883.3.464.1003.198.12.1005"
              }
            ]
          },
          {
            "type": "DiagnosticReport",
            "codeFilter": [
              {
                "path": "code",
                "valueSet": "urn:oid:2.16.840.1.113883.3.464.1003.108.12.1018"
              }
            ]
          }
        ],
        "content": [
          {
            "contentType": "application/elm+xml",
            "data": ""
          },
          {
            "contentType": "text/cql",
            "data": ""
          }
        ]
      },
      "request": {
        "method": "PUT",
        "url": "http://localhost:8080/cqf-ruler/baseDstu3/Library/library-cms125-FHIR"
      }
    },
    {
      "resource": {
        "resourceType": "Library",
        "id": "library-cms130",
        "version": "7.0.0",
        "status": "active",
        "experimental": true,
        "type": {
          "coding": [
            {
              "code": "logic-library"
            }
          ]
        },
        "relatedArtifact": [
          {
            "type": "depends-on",
            "resource": {
              "reference": "Library/library-adult-outpatient-encounters-FHIR"
            }
          },
          {
            "type": "depends-on",
            "resource": {
              "reference": "Library/library-mat-global-common-functions-FHIR"
            }
          },
          {
            "type": "depends-on",
            "resource": {
              "reference": "Library/library-hospice-FHIR"
            }
          },
          {
            "type": "depends-on",
            "resource": {
              "reference": "Library/FHIRHelpers"
            }
          }
        ],
        "dataRequirement": [
          {
            "type": "Encounter",
            "codeFilter": [
              {
                "path": "type",
                "valueSet": "urn:oid:2.16.840.1.113883.3.464.1003.101.12.1001"
              }
            ]
          },
          {
            "type": "Encounter",
            "codeFilter": [
              {
                "path": "type",
                "valueSet": "urn:oid:2.16.840.1.113883.3.526.3.1240"
              }
            ]
          },
          {
            "type": "Encounter",
            "codeFilter": [
              {
                "path": "type",
                "valueSet": "urn:oid:2.16.840.1.113883.3.464.1003.101.12.1025"
              }
            ]
          },
          {
            "type": "Encounter",
            "codeFilter": [
              {
                "path": "type",
                "valueSet": "urn:oid:2.16.840.1.113883.3.464.1003.101.12.1023"
              }
            ]
          },
          {
            "type": "Encounter",
            "codeFilter": [
              {
                "path": "type",
                "valueSet": "urn:oid:2.16.840.1.113883.3.464.1003.101.12.1016"
              }
            ]
          },
          {
            "type": "Encounter",
            "codeFilter": [
              {
                "path": "type",
                "valueSet": "urn:oid:2.16.840.1.113883.3.117.1.7.1.292"
              }
            ]
          },
          {
            "type": "Encounter",
            "codeFilter": [
              {
                "path": "type",
                "valueSet": "urn:oid:2.16.840.1.113883.3.666.5.307"
              }
            ]
          },
          {
            "type": "Encounter",
            "codeFilter": [
              {
                "path": "type",
                "valueSet": "urn:oid:2.16.840.1.113883.3.117.1.7.1.292"
              }
            ]
          },
          {
            "type": "Encounter",
            "codeFilter": [
              {
                "path": "type",
                "valueSet": "urn:oid:2.16.840.1.113883.3.117.1.7.1.292"
              }
            ]
          },
          {
            "type": "Encounter",
            "codeFilter": [
              {
                "path": "type",
                "valueSet": "urn:oid:2.16.840.1.113883.3.666.5.307"
              }
            ]
          },
          {
            "type": "Encounter",
            "codeFilter": [
              {
                "path": "type",
                "valueSet": "urn:oid:2.16.840.1.113883.3.117.1.7.1.292"
              }
            ]
          },
          {
            "type": "Encounter",
            "codeFilter": [
              {
                "path": "type",
                "valueSet": "urn:oid:2.16.840.1.113883.3.666.5.307"
              }
            ]
          },
          {
            "type": "ProcedureRequest",
            "codeFilter": [
              {
                "path": "code",
                "valueSet": "urn:oid:2.16.840.1.113762.1.4.1108.15"
              }
            ]
          },
          {
            "type": "Procedure",
            "codeFilter": [
              {
                "path": "code",
                "valueSet": "urn:oid:2.16.840.1.113762.1.4.1108.15"
              }
            ]
          },
          {
            "type": "Coverage",
            "codeFilter": [
              {
                "path": "type",
                "valueSet": "urn:oid:2.16.840.1.114222.4.11.3591"
              }
            ]
          },
          {
            "type": "Patient"
          },
          {
            "type": "Procedure",
            "codeFilter": [
              {
                "path": "code",
                "valueSet": "urn:oid:2.16.840.1.113883.3.464.1003.198.12.1010"
              }
            ]
          },
          {
            "type": "Procedure",
            "codeFilter": [
              {
                "path": "code",
                "valueSet": "urn:oid:2.16.840.1.113883.3.464.1003.108.12.1038"
              }
            ]
          },
          {
            "type": "Procedure",
            "codeFilter": [
              {
                "path": "code",
                "valueSet": "urn:oid:2.16.840.1.113883.3.464.1003.198.12.1019"
              }
            ]
          },
          {
            "type": "Condition",
            "codeFilter": [
              {
                "path": "code",
                "valueSet": "urn:oid:2.16.840.1.113883.3.464.1003.108.12.1001"
              }
            ]
          },
          {
            "type": "Observation",
            "codeFilter": [
              {
                "path": "code",
                "valueSet": "urn:oid:2.16.840.1.113883.3.464.1003.198.12.1011"
              }
            ]
          },
          {
            "type": "Observation",
            "codeFilter": [
              {
                "path": "code",
                "valueSet": "urn:oid:2.16.840.1.113883.3.464.1003.108.12.1039"
              }
            ]
          },
          {
            "type": "Procedure",
            "codeFilter": [
              {
                "path": "code",
                "valueSet": "urn:oid:2.16.840.1.113883.3.464.1003.108.12.1020"
              }
            ]
          }
        ],
        "content": [
          {
            "contentType": "application/elm+xml",
            "data": ""
          },
          {
            "contentType": "text/cql",
            "data": ""
          }
        ]
      },
      "request": {
        "method": "PUT",
        "url": "http://localhost:8080/cqf-ruler/baseDstu3/Library/library-cms130-FHIR"
      }
    },
    {
      "resource": {
        "resourceType": "Library",
        "id": "library-hospice-FHIR",
        "status": "draft",
        "type": {
          "coding": [
            {
              "code": "logic-library"
            }
          ]
        },
        "relatedArtifact": [
          {
            "type": "depends-on",
            "resource": {
              "reference": "Library/library-mat-global-common-functions-FHIR"
            }
          },
          {
            "type": "depends-on",
            "resource": {
              "reference": "Library/FHIRHelpers"
            }
          }
        ],
        "dataRequirement": [
          {
            "type": "Encounter",
            "codeFilter": [
              {
                "path": "type",
                "valueSet": "urn:oid:2.16.840.1.113883.3.117.1.7.1.292"
              }
            ]
          },
          {
            "type": "Encounter",
            "codeFilter": [
              {
                "path": "type",
                "valueSet": "urn:oid:2.16.840.1.113883.3.666.5.307"
              }
            ]
          },
          {
            "type": "Encounter",
            "codeFilter": [
              {
                "path": "type",
                "valueSet": "urn:oid:2.16.840.1.113883.3.117.1.7.1.292"
              }
            ]
          },
          {
            "type": "Encounter",
            "codeFilter": [
              {
                "path": "type",
                "valueSet": "urn:oid:2.16.840.1.113883.3.666.5.307"
              }
            ]
          },
          {
            "type": "ProcedureRequest",
            "codeFilter": [
              {
                "path": "code",
                "valueSet": "urn:oid:2.16.840.1.113762.1.4.1108.15"
              }
            ]
          },
          {
            "type": "Procedure",
            "codeFilter": [
              {
                "path": "code",
                "valueSet": "urn:oid:2.16.840.1.113762.1.4.1108.15"
              }
            ]
          }
        ],
        "content": [
          {
            "contentType": "application/elm+xml",
            "data": ""
          },
          {
            "contentType": "text/cql",
            "data": ""
          }
        ]
      },
      "request": {
        "method": "PUT",
        "url": "http://localhost:8080/cqf-ruler/baseDstu3/Library/library-hospice-FHIR"
      }
    },
    {
      "resource": {
        "resourceType": "Library",
        "id": "library-mat-global-common-functions-FHIR",
        "status": "draft",
        "type": {
          "coding": [
            {
              "code": "logic-library"
            }
          ]
        },
        "relatedArtifact": [
          {
            "type": "depends-on",
            "resource": {
              "reference": "Library/FHIRHelpers"
            }
          }
        ],
        "dataRequirement": [
          {
            "type": "Encounter",
            "codeFilter": [
              {
                "path": "type",
                "valueSet": "urn:oid:2.16.840.1.113883.3.117.1.7.1.292"
              }
            ]
          },
          {
            "type": "Encounter",
            "codeFilter": [
              {
                "path": "type",
                "valueSet": "urn:oid:2.16.840.1.113883.3.666.5.307"
              }
            ]
          },
          {
            "type": "Encounter",
            "codeFilter": [
              {
                "path": "type",
                "valueSet": "urn:oid:2.16.840.1.113883.3.117.1.7.1.292"
              }
            ]
          }
        ],
        "content": [
          {
            "contentType": "application/elm+xml",
            "data": ""
          },
          {
            "contentType": "text/cql",
            "data": ""
          }
        ]
      },
      "request": {
        "method": "PUT",
        "url": "http://localhost:8080/cqf-ruler/baseDstu3/Library/library-mat-global-common-functions-FHIR"
      }
    },
    {
      "resource": {
        "resourceType": "Measure",
        "id": "measure-cms124-FHIR",
        "url": "http://hl7.org/fhir/us/cqfmeasures/Measure/measure-cms124-FHIR",
        "identifier": [
          {
            "use": "official",
            "system": "http://hl7.org/fhir/cqi/ecqm/Measure/Identifier/cms",
            "value": "130"
          },
          {
            "use": "official",
            "system": "http://hl7.org/fhir/cqi/ecqm/Measure/Identifier/nqf",
            "value": "0034"
          }
        ],
        "version": "7.2.000",
        "name": "CMS124",
        "title": "Cervical Cancer Screening",
        "status": "active",
        "experimental": true,
        "date": "2018-09-17",
        "publisher": "National Committee for Quality Assurance",
        "description": "Percentage of women 21-64 years of age who were screened for cervical cancer using either of the following criteria: <br> *  Women age 21-64 who had cervical cytology performed every 3 years <br.*  Women age 30-64 who had cervical cytology/human papillomavirus (HPV) co-testing performed every 5 years ",
        "purpose": "Women 23-64 years of age with a visit during the measurement period",
        "approvalDate": "2016-01-01",
        "lastReviewDate": "2016-09-01",
        "effectivePeriod": {
          "start": "2018-01-01",
          "end": "2018-12-31"
        },
        "useContext": [
          {
            "code": {
              "code": "program"
            },
            "valueCodeableConcept": {
              "text": "eligibile-provider"
            }
          }
        ],
        "jurisdiction": [
          {
            "coding": [
              {
                "system": "urn:iso:std:iso:3166",
                "code": "US"
              }
            ]
          }
        ],
        "topic": [
          {
            "coding": [
              {
                "system": "http://hl7.org/fhir/c80-doc-typecodes",
                "code": "57024-2"
              }
            ]
          }
        ],
        "contributor": [
          {
            "type": "author",
            "name": "National Committee for Quality Assurance"
          }
        ],
        "contact": [
          {
            "telecom": [
              {
                "system": "url",
                "value": "http://www.ncqa.org/"
              }
            ]
          }
        ],
        "copyright": "This Physician Performance Measure (Measure) and related data specifications were developed by the National Committee for Quality Assurance (NCQA). NCQA is not responsible for any use of the Measure. NCQA makes no representations, warranties, or endorsement about the quality of any organization or physician that uses or reports performance measures and NCQA has no liability to anyone who relies on such measures or specifications. NCQA holds a copyright in the Measure. The Measure can be reproduced and distributed, without modification, for noncommercial purposes (eg, use by healthcare providers in connection with their practices) without obtaining approval from NCQA. Commercial use is defined as the sale, licensing, or distribution of the Measure for commercial gain, or incorporation of the Measure into a product or service that is sold, licensed or distributed for commercial gain. All commercial uses or requests for modification must be approved by NCQA and are subject to a license at the discretion of NCQA. (C) 2012-2017 National Committee for Quality Assurance. All Rights Reserved. <br> Limited proprietary coding is contained in the Measure specifications for user convenience. Users of proprietary code sets should obtain all necessary licenses from the owners of the code sets. NCQA disclaims all liability for use or accuracy of any third party codes contained in the specifications. <br> CPT(R) contained in the Measure specifications is copyright 2004-2017 American Medical Association. LOINC(R) copyright 2004-2017 Regenstrief Institute, Inc. This material contains SNOMED Clinical Terms(R) (SNOMED CT[R] ) copyright 2004-2017 International Health Terminology Standards Development Organisation. ICD-10 copyright 2017 World Health Organization. All Rights Reserved.",
        "relatedArtifact": [
          {
            "type": "citation",
            "citation": "Howlader, N., Noone, A.M., Krapcho, M., Miller, D., Bishop, K., Altekruse, S.F., Kosary, C.L., Yu, M., Ruhl, J., Tatalovich, Z., Mariotto, A., Lewis, D.R., Chen, H.S., Feuer, E.J., and Cronin, K.A. 2016. \"SEER Cancer Statistics Review, 1975-2013.\" National Cancer Institute. (December 5, 2016) http://seer.cancer.gov/csr/1975_2013/"
          },
          {
             "type": "citation",
            "citation": "National Business Group on Health. 2011. \"Pathways to Managing Cancer in the Workplace.\" (May 8, 2012). http://www.tcyh.org/employers/downloads/Pathways_Managing_Cancer_2011.pdf"

          },
          {
             "type": "citation",
            "citation": "Feig S. 2011. Comparison of Costs and Benefits of Breast Cancer Screening with Mammography, Ultrasonagraphy, and MRI. Obstetrics and Gynecology Clinics of North America. 38(1):179-96."

          },
          {
             "type": "citation",
            "citation": "U.S. Preventive Services Task Force (USPSTF). 2016. \"Screening for Breast Cancer: U.S. Preventive Services Task Force Recommendation Statement.\" Ann Intern Med. 164(4):279-296. doi:10.7326/M15-2886."

          }
        ],
        "library": [
          {
            "reference": "Library/library-cms124-FHIR"
          }
        ],
        "disclaimer": "The performance Measure is not a clinical guideline and does not establish a standard of medical care, and has not been tested for all potential applications. THE MEASURE AND SPECIFICATIONS ARE PROVIDED \"AS IS\" WITHOUT WARRANTY OF ANY KIND. <br> Due to technical limitations, registered trademarks are indicated by (R) or [R] and unregistered trademarks are indicated by (TM) or [TM].",
        "scoring": {
          "coding": [
            {
              "code": "proportion"
            }
          ]
        },
        "type": [
          {
            "coding": [
              {
                "code": "process"
              }
            ]
          }
        ],
        "rationale": "Breast cancer is one of the most common types of cancers, accounting for 15 percent of all new cancer diagnoses in the U.S. (Howlader et al, 2016). In 2013, over 3 million women were estimated to be living with breast cancer in the U.S. and it is estimated that 12 percent of women will be diagnosed with breast cancer at some point during their lifetime (Howlader et al, 2016). <br> While there are other factors that affect a woman's risk of developing breast cancer, advancing age is a primary risk factor. Breast cancer is most frequently diagnosed among women ages 55-64; the median age at diagnosis is 62 years (Howlader et al, 2016). The chance of a woman being diagnosed with breast cancer in a given year increases with age. By age 40, the chances are 1 in 235; by age 50 it becomes 1 in 54; by age 60, it is 1 in 25 (National Business Group on Health, 2011). <br> In the U.S., costs associated with a diagnosis of breast cancer range from $451 to $2,520, factoring in continued testing, multiple office visits and procedures. The total costs related to breast cancer add up to nearly $7 billion per year in the U.S., including $2 billion spent on late-stage treatment (National Business Group on Health, 2011). If breast cancer is detected through mammography screening and diagnosed in its earliest stages, treatment may be less expensive (Feig, 2011).",
        "clinicalRecommendationStatement": "The U.S. Preventive Services Task Force (USPSTF) recommends biennial screening mammography for women aged 50-74 years (B recommendation).  <br> The decision to start screening mammography in women prior to age 50 years should be an individual one. Women who place a higher value on the potential benefit than the potential harms may choose to begin biennial screening between the ages of 40 and 49 years (C recommendation). (USPSTF, 2016) <br> The USPSTF concludes that the current evidence is insufficient to assess the balance of benefits and harms of screening mammography in women aged 75 years or older (I statement). (USPSTF, 2016) <br> The USPSTF concludes that the current evidence is insufficient to assess the benefits and harms of digital breast tomosynthesis (DBT) as a primary screening method for breast cancer (I Statement). (USPSTF, 2016)  <br> The USPSTF concludes that the current evidence is insufficient to assess the balance of benefits and harms of adjunctive screening for breast cancer using breast ultrasonography, magnetic resonance imaging, DBT, or other methods in women identified to have dense breasts on an otherwise negative screening mammogram (I statement). (USPSTF, 2016)",
        "improvementNotation": "Higher score equals better quality",
        "guidance": "To ensure the measure is only looking for a cervical cytology test only after a woman turns 21 years of age, the youngest age in the initial population is 23. <br> Patient self-report for procedures as well as diagnostic studies should be recorded in 'Procedure, Performed' template or 'Diagnostic Study, Performed' template in QRDA-1. <br> Include only cytology and HPV \"co-testing\"; in co-testing, both cytology and HPV tests are performed (i.e., the samples are collected and both tests are ordered, regardless of the cytology result) on the same date of service. Do not include reflex testing. In addition, if the medical record indicates the HPV test was performed only after determining the cytology result, this is considered reflex testing and does not meet criteria for the measure.",
        "group": [
          {
            "identifier": {
              "value": "CMS124-group-1"
            },
            "population": [
              {
                "identifier": {
                  "value": "initial-population-identifier"
                },
                "code": {
                  "coding": [
                    {
                      "code": "initial-population"
                    }
                  ]
                },
                "criteria": "Initial Population"
              },
              {
                "identifier": {
                  "value": "numerator-identifier"
                },
                "code": {
                  "coding": [
                    {
                      "code": "numerator"
                    }
                  ]
                },
                "criteria": "Numerator"
              },
              {
                "identifier": {
                  "value": "denominator-identifier"
                },
                "code": {
                  "coding": [
                    {
                      "code": "denominator"
                    }
                  ]
                },
                "criteria": "Denominator"
              },
              {
                "identifier": {
                  "value": "denominator-exclusions-identifier"
                },
                "code": {
                  "coding": [
                    {
                      "code": "denominator-exclusion"
                    }
                  ]
                },
                "criteria": "Denominator Exclusion"
                  }
                ]
              }
            ],
        "supplementalData": [
          {
            "identifier": {
              "value": "supplemental-data-race"
            },
            "criteria": "SDE Race"
          },
          {
            "identifier": {
              "value": "supplemental-data-payer"
            },
            "criteria": "SDE Payer"
          },
          {
            "identifier": {
              "value": "supplemental-data-ethnicity"
            },
            "criteria": "SDE Ethnicity"
          },
          {
            "identifier": {
              "value": "supplemental-data-birthSex"
            },
            "criteria": "SDE Sex"
          }
        ]
      },
      "request": {
        "method": "PUT",
        "url": "http://localhost:8080/cqf-ruler/baseDstu3/Measure/measure-cms124-FHIR"
      }
    },
    {
      "resource": {
        "resourceType": "Measure",
        "id": "measure-cms125-FHIR",
        "text": {
          "status": "additional",
          "div": "<div xmlns=\"http://www.w3.org/1999/xhtml\"><table class=\"grid dict\"><tr><td><b>Id: </b></td></tr><tr><td style=\"padding-left: 25px; padding-right: 25px;\">Measure/measure-cms125</td></tr></table><p/><table class=\"grid dict\"><tr><td><b>Identifier: </b></td></tr><tr><td style=\"padding-left: 25px; padding-right: 25px;\"><b>system: </b><span>http://hl7.org/fhir/cqi/ecqm/Measure/Identifier/cms</span></td></tr><tr><td style=\"padding-left: 25px; padding-right: 25px;\"><b>value: </b><span>122</span></td></tr></table><table class=\"grid dict\"><tr><td><b>Identifier: </b></td></tr><tr><td style=\"padding-left: 25px; padding-right: 25px;\"><b>system: </b><span>http://hl7.org/fhir/cqi/ecqm/Measure/Identifier/nqf</span></td></tr><tr><td style=\"padding-left: 25px; padding-right: 25px;\"><b>value: </b><span>0002</span></td></tr></table><p/><table class=\"grid dict\"><tr><td><b>Title: </b></td></tr><tr><td style=\"padding-left: 25px; padding-right: 25px;\">Diabetes: Hemoglobin A1c (HbA1c) Poor Control (> 9%)</td></tr></table><p/><table class=\"grid dict\"><tr><td><b>Status: </b></td></tr><tr><td style=\"padding-left: 25px; padding-right: 25px;\">active</td></tr></table><p/><table class=\"grid dict\"><tr><td><b>Description: </b></td></tr><tr><td style=\"padding-left: 25px; padding-right: 25px;\">Percentage of patients 18-75 years of age with diabetes who had hemoglobin A1c &gt; 9.0% during the measurement period</td></tr></table><p/><table class=\"grid dict\"><tr><td><b>Purpose: </b></td></tr><tr><td style=\"padding-left: 25px; padding-right: 25px;\">TO-DO:add purpose</td></tr></table><p/><table class=\"grid dict\"><tr><td><b>Topic: </b></td></tr><tr><td style=\"padding-right: 25px;\"><span><span><span style=\"padding-left: 25px;\"><b>system: </b><span>http://hl7.org/fhir/c80-doc-typecodes</span><br/></span><span style=\"padding-left: 25px;\"><b>code: </b><span>57024-2</span><br/></span></span></span></td></tr></table><p/><table class=\"grid dict\"><tr><td><b>Library: </b></td></tr><tr><td style=\"padding-left: 25px; padding-right: 25px;\"><b>reference: </b><span>Library/library-cms125</span></td></tr></table><p/><table class=\"grid dict\"><tr><td><b>Scoring: </b></td></tr><tr><td style=\"padding-left: 25px; padding-right: 25px;\">proportion</td></tr></table><p/><table class=\"grid dict\"><tr><td><b>Type: </b></td></tr><tr><td style=\"padding-left: 25px; padding-right: 25px;\">process</td></tr></table><p/><table class=\"grid dict\"><tr><td><b>Group:</b></td></tr><tr><td style=\"padding-left: 25px; padding-right: 25px;\"><b>Identifier:</b><br/><span style=\"padding-left: 25px;\"><b>value: </b><span>cms125-group-1</span><br/></span></td></tr><tr><td style=\"padding-left: 25px; padding-right: 25px;\"><b>Population:</b><br/><p style=\"margin-bottom: 5px; padding-left: 25px;\"><b>type:</b><span>initial-population</span></p><p style=\"margin-bottom: 5px; padding-left: 25px;\"><b>Identifier:</b><br/><span style=\"padding-left: 25px;\"><b>value: </b><span>initial-population-identifier</span><br/></span></p><p style=\"margin-bottom: 5px; padding-left: 25px;\"><b>criteria: </b><span>cms125.InitialPopulation</span></p></td></tr><tr><td style=\"padding-left: 25px; padding-right: 25px;\"><b>Population:</b><br/><p style=\"margin-bottom: 5px; padding-left: 25px;\"><b>type:</b><span>numerator</span></p><p style=\"margin-bottom: 5px; padding-left: 25px;\"><b>Identifier:</b><br/><span style=\"padding-left: 25px;\"><b>value: </b><span>numerator-identifier</span><br/></span></p><p style=\"margin-bottom: 5px; padding-left: 25px;\"><b>criteria: </b><span>cms125.InNumerator</span></p></td></tr><tr><td style=\"padding-left: 25px; padding-right: 25px;\"><b>Population:</b><br/><p style=\"margin-bottom: 5px; padding-left: 25px;\"><b>type:</b><span>denominator</span></p><p style=\"margin-bottom: 5px; padding-left: 25px;\"><b>Identifier:</b><br/><span style=\"padding-left: 25px;\"><b>value: </b><span>denominator-identifier</span><br/></span></p><p style=\"margin-bottom: 5px; padding-left: 25px;\"><b>criteria: </b><span>cms125.InDenominator</span></p></td></tr><tr><td style=\"padding-left: 25px; padding-right: 25px;\"><b>Population:</b><br/><p style=\"margin-bottom: 5px; padding-left: 25px;\"><b>type:</b><span>denominator-exclusion</span></p><p style=\"margin-bottom: 5px; padding-left: 25px;\"><b>Identifier:</b><br/><span style=\"padding-left: 25px;\"><b>value: </b><span>denominator-exclusions-identifier</span><br/></span></p><p style=\"margin-bottom: 5px; padding-left: 25px;\"><b>criteria: </b><span>cms125.InDenominatorExclusions</span></p></td></tr><tr><td style=\"padding-left: 25px; padding-right: 25px;\"><b>Stratifier:</b><br/><p style=\"padding-left: 25px; margin-bottom: 5px;\"><b>Identifier:</b><br/><span style=\"padding-left: 25px;\"><b>value: </b><span>stratifier-ages-up-to-9</span><br/></span></p><p style=\"margin-bottom: 5px; padding-left: 25px;\"><b>criteria: </b><span>CMS146.AgesUpToNine</span></p></td></tr><tr><td style=\"padding-left: 25px; padding-right: 25px;\"><b>Stratifier:</b><br/><p style=\"padding-left: 25px; margin-bottom: 5px;\"><b>Identifier:</b><br/><span style=\"padding-left: 25px;\"><b>value: </b><span>stratifier-ages-10-plus</span><br/></span></p><p style=\"margin-bottom: 5px; padding-left: 25px;\"><b>criteria: </b><span>CMS146.AgesTenPlus</span></p></td></tr><tr><td style=\"padding-left: 25px; padding-right: 25px;\"><b>Stratifier:</b><br/><p style=\"padding-left: 25px; margin-bottom: 5px;\"><b>Identifier:</b><br/><span style=\"padding-left: 25px;\"><b>value: </b><span>stratifier-ages-up-to-9</span><br/></span></p><p style=\"margin-bottom: 5px; padding-left: 25px;\"><b>path: </b><span>Patient.gender</span></p></td></tr></table><p/><table class=\"grid dict\"><tr><td><b>Supplemental Data:</b></td></tr><tr><td style=\"padding-left: 25px; padding-right: 25px;\"><p style=\"margin-bottom: 5px;\"><b>Identifier:</b><br/><span style=\"padding-left: 25px;\"><b>value: </b><span>supplemental-data-gender</span><br/></span></p><p style=\"margin-bottom: 5px;\"><b>path: </b><span>Patient.gender</span></p></td></tr></table><table class=\"grid dict\"><tr><td><b>Supplemental Data:</b></td></tr><tr><td style=\"padding-left: 25px; padding-right: 25px;\"><p style=\"margin-bottom: 5px;\"><b>Identifier:</b><br/><span style=\"padding-left: 25px;\"><b>value: </b><span>supplemental-data-deceased</span><br/></span></p><p style=\"margin-bottom: 5px;\"><b>path: </b><span>deceasedBoolean</span></p></td></tr></table></div>"
        },
        "url": "http://hl7.org/fhir/us/cqfmeasures/Measure/measure-cms125-FHIR",
        "identifier": [
          {
            "use": "official",
            "system": "http://hl7.org/fhir/cqi/ecqm/Measure/Identifier/cms",
            "value": "146"
          },
          {
            "use": "official",
            "system": "http://hl7.org/fhir/cqi/ecqm/Measure/Identifier/nqf",
            "value": "0002"
          }
        ],
        "version": "6.2.000",
        "name": "CMS125",
        "title": "Breast Cancer Screening",
        "status": "active",
        "experimental": true,
        "date": "2018-08-31",
        "publisher": "National Committee for Quality Assurance",
        "description": "Percentage of women 50-74 years of age who had a mammogram to screen for breast cancer",
        "purpose": "Women 51-74 years of age with a visit during the measurement period",
        "effectivePeriod": {
          "start": "2018-01-01",
          "end": "2018-12-31"
        },
        "useContext": [
          {
            "code": {
              "code": "program"
            },
            "valueCodeableConcept": {
              "text": "eligibile-provider"
            }
          }
        ],
        "jurisdiction": [
          {
            "coding": [
              {
                "system": "urn:iso:std:iso:3166",
                "code": "US"
              }
            ]
          }
        ],
        "topic": [
          {
            "coding": [
              {
                "system": "http://hl7.org/fhir/c80-doc-typecodes",
                "code": "57024-2"
              }
            ]
          }
        ],
        "contributor": [
          {
            "type": "author",
            "name": "National Committee for Quality Assurance"
          }
        ],
        "contact": [
          {
            "telecom": [
              {
                "system": "url",
                "value": "http://www.ncqa.org/"
              }
            ]
          }
        ],
        "copyright": "This Physician Performance Measure (Measure) and related data specifications were developed by the National Committee for Quality Assurance (NCQA). The Measure is copyrighted but can be reproduced and distributed, without modification, for noncommercial purposes (eg, use by healthcare providers in connection with their practices) without obtaining approval from NCQA. Commercial use is defined as the sale, licensing, or distribution of the Measure for commercial gain, or incorporation of the Measure into a product or service that is sold, licensed or distributed for commercial gain. All commercial uses must be approved by NCQA and are subject to a license at the discretion of NCQA. NCQA is not responsible for any use of the Measure. NCQA makes no representations, warranties, or endorsement about the quality of any organization or physician that uses or reports performance measures and NCQA has no liability to anyone who relies on such measures or specifications. (C) 2012-2017 National Committee for Quality Assurance. All Rights Reserved. <br>  Limited proprietary coding is contained in the Measure specifications for user convenience. Users of proprietary code sets should obtain all necessary licenses from the owners of the code sets. NCQA disclaims all liability for use or accuracy of any CPT or other codes contained in the specifications. <br> CPT(R) contained in the Measure specifications is copyright 2004-2016 American Medical Association. LOINC(R) copyright 2004-2016 Regenstrief Institute, Inc. This material contains SNOMED Clinical Terms(R) (SNOMED CT[R]) copyright 2004-2016 International Health Terminology Standards Development Organisation. ICD-10 copyright 2016 World Health Organization. All Rights Reserved. <br> The American Hospital Association holds a copyright to the National Uniform Billing Committee (NUBC) codes contained in the measure specifications. The NUBC codes in the specifications are included with the permission of the AHA. The NUBC codes contained in the specifications may be used by health plans and other health care delivery organizations for the purpose of calculating and reporting Measure results or using Measure results for their internal quality improvement purposes. All other uses of the NUBC codes require a license from the AHA. Anyone desiring to use the NUBC codes in a commercial product to generate Measure results, or for any other commercial use, must obtain a commercial use license directly from the AHA. To inquire about licensing, contact ub04@healthforum.com.",
        "relatedArtifact": [
          {
            "type": "citation",
            "citation": "American Cancer Society. 2010. Cancer Facts & Figures 2010. Atlanta: American Cancer Society."
          },
          {
            "type": "citation",
            "citation": "National Cancer Institute. 2010. \"Breast Cancer Screening.\" http://www.cancer.gov/cancertopics/pdq/screening/breast/healthprofessional"
          },
          {
            "type": "citation",
            "citation": "National Business Group on Health. 2011. Pathways to Managing Cancer in the Workplace. Washington: National Business Group on Health. "
          },
          {
            "type": "citation",
            "citation": "U.S. Preventive Services Task Force (USPSTF). 2009. 1) \"Screening for breast cancer: U.S. Preventive Services Task Force recommendation statement.\" 2) \"December 2009 addendum.\" Ann Intern Med 151(10):716-726."
          },
          {
            "type": "citation",
            "citation": "BreastCancer.org. 2012. U.S. Breast Cancer Statistics. www.breastcancer.org/symptoms/understand_bc/statistics.jsp"
          }
        ],
        "library": [
          {
            "reference": "Library/library-cms125-FHIR"
          }
        ],
        "disclaimer": "The performance Measure is not a clinical guideline and does not establish a standard of medical care, and has not been tested for all potential applications. THE MEASURE AND SPECIFICATIONS ARE PROVIDED \"AS IS\" WITHOUT WARRANTY OF ANY KIND.",
        "scoring": {
          "coding": [
            {
              "code": "proportion"
            }
          ]
        },
        "type": [
          {
            "coding": [
              {
                "code": "process"
              }
            ]
          }
        ],
        "rationale": "Breast cancer is one of the most common types of cancers, accounting for a quarter of all new cancer diagnoses for women in the U.S. (BreastCancer.Org, 2011). It ranks as the second leading cause of cancer-related mortality in women, accounting for nearly 40,000 estimated deaths in 2013 (American Cancer Society, 2011). <br> According to the National Cancer Institute's Surveillance Epidemiology and End Results program, the chance of a woman being diagnosed with breast cancer in a given year increases with age. By age 30, it is one in 2,212. By age 40, the chances increase to one in 235, by age 50, it becomes one in 54, and, by age 60, it is one in 25. From 2004 to 2008, the median age at the time of breast cancer diagnosis was 61 years among adult women (Tangka et al, 2010). <br> In the U.S., costs associated with a diagnosis of breast cancer range from $451 to $2,520, factoring in continued testing, multiple office visits, and varying procedures. The total costs related to breast cancer add up to nearly $7 billion per year in the U.S., including $2 billion spent on late-stage treatment (Lavigne et al, 2008; Boykoff et al, 2009).",
        "clinicalRecommendationStatement": "The U.S. Preventive Services Task Force (USPSTF) recommends biennial screening mammography for women aged 50-74 years (B recommendation). The decision to start regular, biennial screening mammography before the age of 50 years should be an individual one and take patient context into account, including the patient's values regarding specific benefits and harms (C recommendation). The Task Force concludes the evidence is insufficient to assess the additional benefits and harms of screening mammography in women 75 years and older (I statement). <br> U.S. Preventive Services Task Force (2009) <br> Grade: B recommendation. The USPSTF recommends biennial screening mammography for women aged 50 to 74 years. <br> Grade: C recommendation. The decision to start regular, biennial screening mammography before the age of 50 years should be an individual one and take patient context into account, including the patient's values regarding specific benefits and harms. <br> Grade: I Statement. The USPSTF concludes that the current evidence is insufficient to assess the additional benefits and harms of screening mammography in women 75 years or older. <br> Grade: D recommendation. The USPSTF recommends against teaching breast self-examination (BSE). <br> Grade: I Statement. The USPSTF concludes that the current evidence is insufficient to assess the additional benefits and harms of clinical breast examination (CBE) beyond screening mammography in women 40 years or older. <br> Grade: I Statement. The USPSTF concludes that the current evidence is insufficient to assess the additional benefits and harms of either digital mammography or magnetic resonance imaging (MRI) instead of film mammography as screening modalities for breast cancer.",
        "improvementNotation": "Higher score equals better quality",
        "guidance": "Patient self-report for procedures as well as diagnostic studies should be recorded in 'Procedure, Performed' template or 'Diagnostic Study, Performed' template in QRDA-1. Patient self-report is not allowed for laboratory tests. <br> This measure evaluates primary screening. Do not count biopsies, breast ultrasounds, MRIs or tomosynthesis (3D mammography), because they are not appropriate methods for primary breast cancer screening.",
        "group": [
          {
            "identifier": {
              "value": "CMS125-group-1"
            },
            "population": [
              {
                "identifier": {
                  "value": "initial-population-identifier"
                },
                "code": {
                  "coding": [
                    {
                      "code": "initial-population"
                    }
                  ]
                },
                "criteria": "Initial Population"
              },
              {
                "identifier": {
                  "value": "numerator-identifier"
                },
                "code": {
                  "coding": [
                    {
                      "code": "numerator"
                    }
                  ]
                },
                "criteria": "Numerator"
              },
              {
                "identifier": {
                  "value": "denominator-identifier"
                },
                "code": {
                  "coding": [
                    {
                      "code": "denominator"
                    }
                  ]
                },
                "criteria": "Denominator"
              },
              {
                "identifier": {
                  "value": "denominator-exclusions-identifier"
                },
                "code": {
                  "coding": [
                    {
                      "code": "denominator-exclusion"
                    }
                  ]
                },
                "criteria": "Denominator Exclusion"
              }
            ]
          }
        ],
        "supplementalData": [
          {
            "identifier": {
              "value": "supplemental-data-race"
            },
            "criteria": "SDE Race"
          },
          {
            "identifier": {
              "value": "supplemental-data-payer"
            },
            "criteria": "SDE Payer"
          },
          {
            "identifier": {
              "value": "supplemental-data-ethnicity"
            },
            "criteria": "SDE Ethnicity"
          },
          {
            "identifier": {
              "value": "supplemental-data-birthSex"
            },
            "criteria": "SDE Sex"
          }
        ]
      },
      "request": {
        "method": "PUT",
        "url": "http://localhost:8080/cqf-ruler/baseDstu3/Measure/measure-cms125-FHIR"
      }
    },
    {
      "resource": {
         "resourceType":"Measure",
         "id":"measure-cms130-FHIR",
         "url":"http://hl7.org/fhir/us/cqfmeasures/Measure/measure-cms130-FHIR",
         "identifier":[
            {
               "use":"official",
               "system":"http://hl7.org/fhir/cqi/ecqm/Measure/Identifier/cms",
               "value":"130"
            },
            {
               "use":"official",
               "system":"http://hl7.org/fhir/cqi/ecqm/Measure/Identifier/nqf",
               "value":"0034"
            }
         ],
         "version":"7.2.000",
         "name":"CMS130",
         "title":"Colorectal Cancer Screening",
         "status":"active",
         "experimental":true,
         "date":"2018-08-28",
         "publisher":"National Committee for Quality Assurance",
         "description":"Percentage of adults 50-75 years of age who had appropriate screening for colorectal cancer",
         "purpose":"Patients 50-75 years of age with a visit during the measurement period",
         "approvalDate":"2016-01-01",
         "lastReviewDate":"2016-09-01",
         "effectivePeriod":{
            "start":"2018-01-01",
            "end":"2018-12-31"
         },
         "useContext":[
            {
               "code":{
                  "code":"program"
               },
               "valueCodeableConcept":{
                  "text":"eligibile-provider"
               }
            }
         ],
         "jurisdiction":[
            {
               "coding":[
                  {
                     "system":"urn:iso:std:iso:3166",
                     "code":"US"
                  }
               ]
            }
         ],
         "topic":[
            {
               "coding":[
                  {
                     "system":"http://hl7.org/fhir/c80-doc-typecodes",
                     "code":"57024-2"
                  }
               ]
            }
         ],
         "contributor":[
            {
               "type":"author",
               "name":"National Committee for Quality Assurance"
            }
         ],
         "contact":[
            {
               "telecom":[
                  {
                     "system":"url",
                     "value":"http://www.ncqa.org/"
                  }
               ]
            }
         ],
         "copyright":"This Physician Performance Measure (Measure) and related data specifications were developed by the National Committee for Quality Assurance (NCQA). NCQA is not responsible for any use of the Measure. NCQA makes no representations, warranties, or endorsement about the quality of any organization or physician that uses or reports performance measures and NCQA has no liability to anyone who relies on such measures or specifications. NCQA holds a copyright in the Measure. The Measure can be reproduced and distributed, without modification, for noncommercial purposes (eg, use by healthcare providers in connection with their practices) without obtaining approval from NCQA. Commercial use is defined as the sale, licensing, or distribution of the Measure for commercial gain, or incorporation of the Measure into a product or service that is sold, licensed or distributed for commercial gain. All commercial uses or requests for modification must be approved by NCQA and are subject to a license at the discretion of NCQA. (C) 2012-2017 National Committee for Quality Assurance. All Rights Reserved. Limited proprietary coding is contained in the Measure specifications for user convenience. Users of proprietary code sets should obtain all necessary licenses from the owners of the code sets. NCQA disclaims all liability for use or accuracy of any third party codes contained in the specifications. CPT(R) contained in the Measure specifications is copyright 2004-2017 American Medical Association. LOINC(R) copyright 2004-2017 Regenstrief Institute, Inc. This material contains SNOMED Clinical Terms(R) (SNOMED CT[R] ) copyright 2004-2017 International Health Terminology Standards Development Organisation. ICD-10 copyright 2017 World Health Organization. All Rights Reserved.",
         "relatedArtifact":[
            {
               "type":"citation",
               "citation":"U.S. Preventive Services Task Force. \"Screening for Colorectal Cancer: U.S. Preventive Services Task Force Recommendation Statement.\" JAMA, vol. 315, no. 23, 2016, pp. 2564-2575. doi: 10.1001/jama.2016.5989 "
            },
            {
               "type":"citation",
               "citation":"Howlader, N., A.M. Noone, M. Krapcho, D. Miller, K. Bishop, C.L. Kosary, M. Yu, J. Ruhl, Z. Tatalovich, A. Mariotto, D.R. Lewis, H.S. Chen, E.J. Feuer, and K.A. Cronin. \"SEER Cancer Statistics Review, 1975-2014.\" Washington, DC: National Cancer Institute, 2017. Available at https://seer.cancer.gov/csr/1975_2014/ "
            },
            {
               "type":"citation",
               "citation":"American Cancer Society. \"Can Colorectal Polyps and Cancer Be Found Early?\" Last modified March 2017. Washington, DC: American Cancer Society. Available at https://www.cancer.org/cancer/colon-rectal-cancer/detection-diagnosis-staging/detection.html. "
            }
         ],
         "library":[
            {
               "reference":"Library/library-cms130-FHIR"
            }
         ],
         "disclaimer":"The performance Measure is not a clinical guideline and does not establish a standard of medical care, and has not been tested for all potential applications. THE MEASURE AND SPECIFICATIONS ARE PROVIDED \"AS IS\" WITHOUT WARRANTY OF ANY KIND. Due to technical limitations, registered trademarks are indicated by (R) or [R] and unregistered trademarks are indicated by (TM) or [TM].",
         "scoring":{
            "coding":[
               {
                  "code":"proportion"
               }
            ]
         },
         "type":[
            {
               "coding":[
                  {
                     "code":"process"
                  }
               ]
            }
         ],
         "rationale":"Colorectal cancer represents 8 percent of all new cancer cases and is the second leading cause of cancer deaths in the United States. In 2017, there were an estimated 135,430 new cases of colorectal cancer and an estimated 50,260 deaths attributed to it. According to the National Cancer Institute, about 4.3 percent of men and women will be diagnosed with colorectal cancer at some point during their lifetimes. For most adults, older age is the most important risk factor for colorectal cancer, although being male and black are also associated with higher incidence and mortality. Colorectal cancer is most frequently diagnosed among people 65 to 74 years old (Howlader et al. 2017). Screening can be effective for finding precancerous lesions (polyps) that could later become malignant, and for detecting early cancers that can be more easily and effectively treated. Precancerous polyps usually take about 10 to 15 years to develop into colorectal cancer, and most can be found and removed before turning into cancer. The five-year relative survival rate for people whose colorectal cancer is found in the early stage before it has spread is about 90 percent (American Cancer Society 2017).",
         "clinicalRecommendationStatement":"The U. S. Preventive Services Task Force (2016) recommends screening for colorectal cancer starting at age 50 years and continuing until age 75 years. This is a Grade A recommendation (U.S. Preventive Services Task Force 2016). Screening tests: -Colonoscopy (every 10 years) -Flexible sigmoidoscopy (every 5 years) -Fecal occult blood test (annually) -FIT-DNA (every 3 years) -Computed tomographic colonography (every 5 years)",
         "improvementNotation":"Higher score indicates better quality",
         "guidance":"Patient self-report for procedures as well as diagnostic studies should be recorded in \"Procedure, Performed\" template or \"Diagnostic Study, Performed\" template in QRDA-1. Do not count DRE, FOBT tests performed in an office setting or performed on a sample collected via DRE.",
         "group":[
            {
               "identifier":{
                  "value":"CMS130-group-1"
               },
               "population":[
                  {
                     "identifier":{
                        "value":"initial-population-identifier"
                     },
                     "code":{
                        "coding":[
                           {
                              "code":"initial-population"
                           }
                        ]
                     },
                     "criteria":"Initial Population"
                  },
                  {
                     "identifier":{
                        "value":"numerator-identifier"
                     },
                     "code":{
                        "coding":[
                           {
                              "code":"numerator"
                           }
                        ]
                     },
                     "criteria":"Numerator"
                  },
                  {
                     "identifier":{
                        "value":"denominator-identifier"
                     },
                     "code":{
                        "coding":[
                           {
                              "code":"denominator"
                           }
                        ]
                     },
                     "criteria":"Denominator"
                  },
                  {
                     "identifier":{
                        "value":"denominator-exclusions-identifier"
                     },
                     "code":{
                        "coding":[
                           {
                              "code":"denominator-exclusion"
                           }
                        ]
                     },
                     "criteria":"Denominator Exclusion"
                  }
               ]
            }
         ],
         "supplementalData":[
            {
               "identifier":{
                  "value":"supplemental-data-race"
               },
               "criteria":"SDE Race"
            },
            {
               "identifier":{
                  "value":"supplemental-data-payer"
               },
               "criteria":"SDE Payer"
            },
            {
               "identifier":{
                  "value":"supplemental-data-ethnicity"
               },
               "criteria":"SDE Ethnicity"
            },
            {
               "identifier":{
                  "value":"supplemental-data-birthSex"
               },
               "criteria":"SDE Sex"
            }
         ]
      },
      "request": {
        "method": "PUT",
        "url": "http://localhost:8080/cqf-ruler/baseDstu3/Measure/measure-cms130-FHIR"
      }
    }
  ]
}
